File: texture_analysis/data/XRD-8 component systems.csv
;Sample1;;Sample2;;Sample3;;Sample4;;Sample5;;Sample6;;Sample7;;Sample8;;Sample9;;Sample10;;Sample11;;Sample12;;Sample13;;Sample14;;Sample15;;Sample16;;Sample17;;Sample18;;Sample19;;Sample20;;Sample21;;Sample22;;Sample23;;Sample24;;Sample25;;Sample26;;Sample27;;Sample28;;Sample29;;Sample30;;Sample31;;Sample32;;Sample33;;Sample34;;Sample35;;Sample36;;Sample37;;Sample38;;Sample39;;Sample40;;Sample41;;Sample42;;Sample43;;Sample44;;Sample45;;Sample46;;Sample47;;Sample48;;Sample49;;Sample50;;Sample51;;Sample52;;Sample53;;Sample54;;Sample55;;Sample56;;Sample57;;Sample58;;Sample59;;Sample60;;Sample61;;Sample62;;Sample63;;Sample64;;Sample65;;Sample66;;Sample67;;Sample68;;Sample69;;Sample70;;Sample71;;Sample72;;Sample73;;Sample74;;Sample75;;Sample76;;Sample77;;Sample78;;Sample79;;Sample80;;Sample81;;Sample82;;Sample83;;Sample84;;Sample85;;Sample86;;Sample87;;Sample88;;Sample89;;Sample90;;Sample91;;Sample92;;Sample93
10;3840;10;3729;10;4045;10;3300;10;4032;10;4246;10;3967;10;4300;10;3908;10;4166;10;3539;10;3566;10;3872;10;4129;10;3690;10;3654;10;3798;10;3539;10;3705;10;3715;10;3654;10;3757;10;3613;10;3647;10;3450;10;3465;10;3914;10;3668;10;3641;10;3774;10;3559;10;3395;10;3393;10;3622;10;3653;10;2960;10;3050;10;3029;10;3069;10;3445;10;2997;10;3660;10;3596;10;3524;10;3780;10;3593;10;3559;10;3486;10;3420;10;3748;10;3648;10;3706;10;3516;10;3498;10;3682;10;3616;10;3160;10;3710;10;3595;10;3669;10;3005;10;3663;10;3861;10;3461;10;3715;10;3813;10;3700;10;3537;10;3585;10;3451;10;3531;10;3463;10;3346;10;3597;10;3495;10;3586;10;3392;10;3225;10;3267;10;3454;10;3330;10;3364;10;3407;10;3244;10;3195;10;3354;10;3158;10;3319;10;3399;10;3289;10;3404;10;3296;10;3383
11.035;3353;11.035;3294;11.035;3667;11.035;3053;11.035;3563;11.035;3777;11.035;3449;11.035;3860;11.035;3468;11.035;3833;11.035;3198;11.035;3213;11.035;3495;11.035;3616;11.035;3372;11.035;3321;11.035;3526;11.035;3068;11.035;3436;11.035;3477;11.035;3171;11.035;3426;11.035;3200;11.035;3186;11.035;3139;11.035;3235;11.035;3537;11.035;3203;11.035;3321;11.035;3314;11.035;3138;11.035;3005;11.035;3159;11.035;3324;11.035;3291;11.035;2549;11.035;2823;11.035;2611;11.035;2881;11.035;2968;11.035;2757;11.035;3154;11.035;2967;11.035;3103;11.035;3225;11.035;3096;11.035;3087;11.035;3080;11.035;3119;11.035;3198;11.035;3252;11.035;3320;11.035;3145;11.035;3157;11.035;3263;11.035;3214;11.035;2951;11.035;3385;11.035;3156;11.035;3389;11.035;2736;11.035;3324;11.035;3362;11.035;3149;11.035;3275;11.035;3498;11.035;3227;11.035;3105;11.035;3139;11.035;3103;11.035;3044;11.035;3031;11.035;2914;11.035;3027;11.035;3100;11.035;3126;11.035;3011;11.035;2824;11.035;2883;11.035;3050;11.035;2921;11.035;2981;11.035;2944;11.035;2834;11.035;2772;11.035;2983;11.035;2603;11.035;2974;11.035;2931;11.035;2961;11.035;2982;11.035;2874;11.035;2964
12.07;3156;12.07;3165;12.07;3341;12.07;2864;12.07;3163;12.07;3576;12.07;3194;12.07;3564;12.07;3258;12.07;3608;12.07;2982;12.07;3023;12.07;3379;12.07;3401;12.07;3081;12.07;3117;12.07;3366;12.07;2880;12.07;3189;12.07;3415;12.07;2895;12.07;3104;12.07;3010;12.07;2879;12.07;2871;12.07;2996;12.07;3357;12.07;2944;12.07;3131;12.07;3011;12.07;2956;12.07;2894;12.07;2939;12.07;2970;12.07;3069;12.07;2400;12.07;2658;12.07;2446;12.07;2676;12.07;2825;12.07;2588;12.07;3038;12.07;2929;12.07;2850;12.07;3038;12.07;2948;12.07;2947;12.07;2777;12.07;2836;12.07;3025;12.07;3004;12.07;2980;12.07;3070;12.07;3052;12.07;3024;12.07;2978;12.07;2723;12.07;3026;12.07;2904;12.07;3204;12.07;2522;12.07;3122;12.07;3219;12.07;2883;12.07;3058;12.07;3332;12.07;2998;12.07;2920;12.07;2922;12.07;2925;12.07;2890;12.07;2754;12.07;2741;12.07;2841;12.07;2977;12.07;2969;12.07;2887;12.07;2730;12.07;2594;12.07;2786;12.07;2826;12.07;2653;12.07;2774;12.07;2572;12.07;2676;12.07;2683;12.07;2512;12.07;2866;12.07;2772;12.07;2717;12.07;2763;12.07;2703;12.07;2664
13.105;2936;13.105;2835;13.105;3062;13.105;2651;13.105;2911;13.105;3356;13.105;2917;13.105;3300;13.105;3092;13.105;3446;13.105;2809;13.105;2882;13.105;3042;13.105;3283;13.105;2870;13.105;2868;13.105;3223;13.105;2671;13.105;2906;13.105;3254;13.105;2705;13.105;2899;13.105;2737;13.105;2727;13.105;2751;13.105;2775;13.105;3185;13.105;2762;13.105;3012;13.105;2937;13.105;2722;13.105;2647;13.105;2793;13.105;2869;13.105;2866;13.105;2110;13.105;2535;13.105;2321;13.105;2525;13.105;2539;13.105;2380;13.105;2878;13.105;2637;13.105;2648;13.105;2806;13.105;2697;13.105;2612;13.105;2572;13.105;2669;13.105;2816;13.105;2761;13.105;2804;13.105;2676;13.105;2753;13.105;2813;13.105;2828;13.105;2551;13.105;2909;13.105;2701;13.105;2994;13.105;2410;13.105;2920;13.105;3040;13.105;2648;13.105;2793;13.105;3045;13.105;2884;13.105;2636;13.105;2704;13.105;2771;13.105;2754;13.105;2490;13.105;2598;13.105;2616;13.105;2725;13.105;2764;13.105;2613;13.105;2563;13.105;2481;13.105;2569;13.105;2513;13.105;2549;13.105;2560;13.105;2400;13.105;2509;13.105;2521;13.105;2398;13.105;2549;13.105;2584;13.105;2629;13.105;2560;13.105;2412;13.105;2550
14.14;2760;14.14;2793;14.14;2897;14.14;2630;14.14;2786;14.14;3286;14.14;2763;14.14;3131;14.14;2936;14.14;3266;14.14;2629;14.14;2653;14.14;2783;14.14;3012;14.14;2610;14.14;2807;14.14;3101;14.14;2533;14.14;2800;14.14;3122;14.14;2566;14.14;2770;14.14;2577;14.14;2557;14.14;2618;14.14;2638;14.14;3050;14.14;2592;14.14;2886;14.14;2739;14.14;2462;14.14;2552;14.14;2704;14.14;2698;14.14;2609;14.14;2083;14.14;2474;14.14;2163;14.14;2511;14.14;2458;14.14;2391;14.14;2708;14.14;2426;14.14;2584;14.14;2685;14.14;2584;14.14;2482;14.14;2411;14.14;2601;14.14;2624;14.14;2601;14.14;2553;14.14;2668;14.14;2636;14.14;2636;14.14;2692;14.14;2423;14.14;2763;14.14;2486;14.14;2957;14.14;2316;14.14;2841;14.14;3023;14.14;2491;14.14;2605;14.14;2951;14.14;2689;14.14;2482;14.14;2581;14.14;2643;14.14;2582;14.14;2387;14.14;2477;14.14;2432;14.14;2624;14.14;2494;14.14;2495;14.14;2436;14.14;2342;14.14;2353;14.14;2431;14.14;2413;14.14;2385;14.14;2250;14.14;2468;14.14;2324;14.14;2267;14.14;2438;14.14;2376;14.14;2572;14.14;2356;14.14;2203;14.14;2379
15.175;2617;15.175;2672;15.175;2675;15.175;2356;15.175;2564;15.175;3087;15.175;2590;15.175;2963;15.175;2816;15.175;3092;15.175;2467;15.175;2625;15.175;2569;15.175;2849;15.175;2396;15.175;2543;15.175;2907;15.175;2448;15.175;2670;15.175;2993;15.175;2473;15.175;2574;15.175;2380;15.175;2315;15.175;2364;15.175;2550;15.175;2904;15.175;2354;15.175;2640;15.175;2485;15.175;2323;15.175;2306;15.175;2643;15.175;2442;15.175;2384;15.175;1848;15.175;2360;15.175;2062;15.175;2379;15.175;2175;15.175;2261;15.175;2473;15.175;2297;15.175;2361;15.175;2327;15.175;2382;15.175;2161;15.175;2135;15.175;2387;15.175;2463;15.175;2360;15.175;2409;15.175;2403;15.175;2403;15.175;2387;15.175;2471;15.175;2271;15.175;2537;15.175;2324;15.175;2698;15.175;2196;15.175;2701;15.175;2784;15.175;2348;15.175;2398;15.175;2794;15.175;2576;15.175;2247;15.175;2402;15.175;2446;15.175;2337;15.175;2158;15.175;2326;15.175;2245;15.175;2444;15.175;2336;15.175;2407;15.175;2233;15.175;2093;15.175;2115;15.175;2172;15.175;2097;15.175;2198;15.175;2023;15.175;2316;15.175;2203;15.175;2034;15.175;2263;15.175;2258;15.175;2367;15.175;2238;15.175;2106;15.175;2128
16.21;2328;16.21;2354;16.21;2425;16.21;2268;16.21;2284;16.21;2913;16.21;2265;16.21;2699;16.21;2452;16.21;2801;16.21;2247;16.21;2285;16.21;2312;16.21;2631;16.21;2186;16.21;2355;16.21;2728;16.21;2233;16.21;2476;16.21;2850;16.21;2196;16.21;2291;16.21;2088;16.21;2147;16.21;2189;16.21;2398;16.21;2677;16.21;2140;16.21;2448;16.21;2184;16.21;2035;16.21;2160;16.21;2377;16.21;2223;16.21;2150;16.21;1630;16.21;2149;16.21;1805;16.21;2148;16.21;1998;16.21;2113;16.21;2347;16.21;2050;16.21;2135;16.21;2114;16.21;2159;16.21;1998;16.21;1943;16.21;2250;16.21;2157;16.21;2226;16.21;2118;16.21;2116;16.21;2234;16.21;2275;16.21;2203;16.21;1987;16.21;2350;16.21;2072;16.21;2527;16.21;2019;16.21;2505;16.21;2486;16.21;2062;16.21;2163;16.21;2512;16.21;2266;16.21;1998;16.21;2110;16.21;2223;16.21;2044;16.21;1984;16.21;2020;16.21;1967;16.21;2255;16.21;2187;16.21;2137;16.21;1932;16.21;1824;16.21;1970;16.21;1916;16.21;1980;16.21;1966;16.21;1757;16.21;2076;16.21;1897;16.21;1831;16.21;1956;16.21;2052;16.21;2131;16.21;1920;16.21;1839;16.21;1972
17.245;2105;17.245;2311;17.245;2265;17.245;2072;17.245;2185;17.245;2797;17.245;2144;17.245;2596;17.245;2299;17.245;2713;17.245;2139;17.245;2249;17.245;2148;17.245;2432;17.245;2020;17.245;2220;17.245;2721;17.245;2154;17.245;2334;17.245;2801;17.245;2130;17.245;2295;17.245;1977;17.245;1952;17.245;2125;17.245;2307;17.245;2546;17.245;1978;17.245;2323;17.245;2049;17.245;2000;17.245;2093;17.245;2421;17.245;2080;17.245;1999;17.245;1533;17.245;2079;17.245;1587;17.245;2064;17.245;1894;17.245;2041;17.245;2193;17.245;1844;17.245;1952;17.245;2073;17.245;2047;17.245;1889;17.245;1833;17.245;2087;17.245;2028;17.245;2130;17.245;1964;17.245;2099;17.245;2075;17.245;2014;17.245;2094;17.245;1925;17.245;2164;17.245;1899;17.245;2421;17.245;1944;17.245;2460;17.245;2480;17.245;2005;17.245;1918;17.245;2358;17.245;2177;17.245;1871;17.245;1998;17.245;2162;17.245;1999;17.245;1896;17.245;1991;17.245;1885;17.245;2054;17.245;2023;17.245;2047;17.245;1851;17.245;1668;17.245;1756;17.245;1840;17.245;1814;17.245;1845;17.245;1625;17.245;2003;17.245;1779;17.245;1747;17.245;1843;17.245;1928;17.245;2031;17.245;1828;17.245;1747;17.245;1860
18.28;1975;18.28;2052;18.28;1987;18.28;1941;18.28;1855;18.28;2540;18.28;1874;18.28;2276;18.28;2146;18.28;2477;18.28;2019;18.28;2073;18.28;2010;18.28;2274;18.28;1877;18.28;2133;18.28;2494;18.28;1896;18.28;2157;18.28;2621;18.28;1951;18.28;1953;18.28;1818;18.28;1780;18.28;1941;18.28;2148;18.28;2358;18.28;1856;18.28;2158;18.28;1943;18.28;1748;18.28;1849;18.28;2256;18.28;1881;18.28;1838;18.28;1404;18.28;1849;18.28;1449;18.28;1847;18.28;1640;18.28;1849;18.28;2027;18.28;1670;18.28;1829;18.28;1903;18.28;1866;18.28;1645;18.28;1623;18.28;1874;18.28;1850;18.28;1874;18.28;1720;18.28;1909;18.28;1904;18.28;1807;18.28;1896;18.28;1717;18.28;1985;18.28;1759;18.28;2316;18.28;1767;18.28;2196;18.28;2262;18.28;1828;18.28;1758;18.28;2217;18.28;1980;18.28;1702;18.28;1823;18.28;1970;18.28;1727;18.28;1796;18.28;1772;18.28;1660;18.28;1954;18.28;1817;18.28;1868;18.28;1664;18.28;1503;18.28;1686;18.28;1667;18.28;1659;18.28;1681;18.28;1472;18.28;1847;18.28;1541;18.28;1566;18.28;1708;18.28;1711;18.28;1848;18.28;1610;18.28;1533;18.28;1678
19.315;1838;19.315;1995;19.315;1907;19.315;1797;19.315;1706;19.315;2506;19.315;1729;19.315;2227;19.315;2022;19.315;2306;19.315;1754;19.315;1930;19.315;2003;19.315;2185;19.315;1713;19.315;1929;19.315;2439;19.315;1775;19.315;2072;19.315;2624;19.315;1793;19.315;1898;19.315;1622;19.315;1661;19.315;1769;19.315;1968;19.315;2254;19.315;1669;19.315;1950;19.315;1782;19.315;1631;19.315;1655;19.315;2086;19.315;1774;19.315;1632;19.315;1247;19.315;1794;19.315;1337;19.315;1777;19.315;1442;19.315;1765;19.315;1904;19.315;1464;19.315;1721;19.315;1618;19.315;1725;19.315;1449;19.315;1471;19.315;1756;19.315;1659;19.315;1732;19.315;1506;19.315;1628;19.315;1720;19.315;1629;19.315;1791;19.315;1624;19.315;1827;19.315;1572;19.315;2222;19.315;1681;19.315;2069;19.315;2126;19.315;1656;19.315;1613;19.315;2052;19.315;1824;19.315;1511;19.315;1626;19.315;1875;19.315;1621;19.315;1724;19.315;1611;19.315;1537;19.315;1823;19.315;1658;19.315;1827;19.315;1615;19.315;1356;19.315;1429;19.315;1541;19.315;1505;19.315;1527;19.315;1353;19.315;1762;19.315;1424;19.315;1429;19.315;1572;19.315;1650;19.315;1759;19.315;1458;19.315;1337;19.315;1562
20.35;1713;20.35;1794;20.35;1695;20.35;1821;20.35;1600;20.35;2383;20.35;1643;20.35;2100;20.35;1846;20.35;2297;20.35;1722;20.35;1859;20.35;1700;20.35;2136;20.35;1565;20.35;1840;20.35;2355;20.35;1659;20.35;1898;20.35;2437;20.35;1697;20.35;1744;20.35;1499;20.35;1558;20.35;1634;20.35;1844;20.35;2102;20.35;1602;20.35;1878;20.35;1673;20.35;1412;20.35;1578;20.35;2003;20.35;1595;20.35;1539;20.35;1101;20.35;1713;20.35;1250;20.35;1706;20.35;1378;20.35;1684;20.35;1789;20.35;1397;20.35;1597;20.35;1569;20.35;1542;20.35;1354;20.35;1399;20.35;1729;20.35;1618;20.35;1575;20.35;1365;20.35;1567;20.35;1617;20.35;1622;20.35;1660;20.35;1449;20.35;1786;20.35;1464;20.35;2052;20.35;1620;20.35;2042;20.35;2036;20.35;1505;20.35;1462;20.35;1954;20.35;1738;20.35;1439;20.35;1490;20.35;1718;20.35;1473;20.35;1532;20.35;1515;20.35;1459;20.35;1684;20.35;1621;20.35;1691;20.35;1446;20.35;1260;20.35;1376;20.35;1424;20.35;1336;20.35;1420;20.35;1243;20.35;1639;20.35;1283;20.35;1352;20.35;1465;20.35;1505;20.35;1609;20.35;1431;20.35;1295;20.35;1406
21.385;1529;21.385;1686;21.385;1555;21.385;1668;21.385;1400;21.385;2248;21.385;1493;21.385;1876;21.385;1754;21.385;2142;21.385;1565;21.385;1858;21.385;1573;21.385;1981;21.385;1444;21.385;1694;21.385;2204;21.385;1530;21.385;1806;21.385;2450;21.385;1557;21.385;1597;21.385;1351;21.385;1444;21.385;1591;21.385;1755;21.385;2008;21.385;1413;21.385;1791;21.385;1450;21.385;1260;21.385;1485;21.385;1850;21.385;1562;21.385;1383;21.385;988;21.385;1610;21.385;1096;21.385;1693;21.385;1216;21.385;1648;21.385;1620;21.385;1258;21.385;1483;21.385;1401;21.385;1485;21.385;1168;21.385;1248;21.385;1578;21.385;1427;21.385;1499;21.385;1269;21.385;1481;21.385;1570;21.385;1368;21.385;1522;21.385;1413;21.385;1668;21.385;1310;21.385;1981;21.385;1483;21.385;1949;21.385;1965;21.385;1337;21.385;1316;21.385;1859;21.385;1551;21.385;1311;21.385;1350;21.385;1608;21.385;1341;21.385;1408;21.385;1436;21.385;1284;21.385;1584;21.385;1466;21.385;1525;21.385;1355;21.385;1128;21.385;1233;21.385;1323;21.385;1281;21.385;1253;21.385;1122;21.385;1543;21.385;1223;21.385;1268;21.385;1315;21.385;1349;21.385;1505;21.385;1263;21.385;1193;21.385;1293
22.42;1432;22.42;1575;22.42;1470;22.42;1645;22.42;1223;22.42;2214;22.42;1367;22.42;1838;22.42;1666;22.42;2046;22.42;1498;22.42;1676;22.42;1393;22.42;1855;22.42;1311;22.42;1677;22.42;2151;22.42;1418;22.42;1707;22.42;2256;22.42;1381;22.42;1516;22.42;1252;22.42;1347;22.42;1463;22.42;1663;22.42;1882;22.42;1284;22.42;1651;22.42;1400;22.42;1132;22.42;1391;22.42;1867;22.42;1418;22.42;1286;22.42;870;22.42;1507;22.42;1006;22.42;1541;22.42;1062;22.42;1530;22.42;1492;22.42;1107;22.42;1357;22.42;1321;22.42;1356;22.42;1107;22.42;1034;22.42;1478;22.42;1359;22.42;1344;22.42;1156;22.42;1282;22.42;1404;22.42;1263;22.42;1341;22.42;1282;22.42;1454;22.42;1217;22.42;1861;22.42;1434;22.42;1812;22.42;1832;22.42;1267;22.42;1274;22.42;1716;22.42;1565;22.42;1180;22.42;1329;22.42;1475;22.42;1173;22.42;1248;22.42;1256;22.42;1196;22.42;1451;22.42;1387;22.42;1410;22.42;1367;22.42;963;22.42;1094;22.42;1201;22.42;1127;22.42;1185;22.42;1008;22.42;1514;22.42;1088;22.42;1098;22.42;1243;22.42;1252;22.42;1412;22.42;1150;22.42;1060;22.42;1180
23.455;1352;23.455;1520;23.455;1334;23.455;1485;23.455;1219;23.455;2119;23.455;1295;23.455;1733;23.455;1597;23.455;1976;23.455;1411;23.455;1674;23.455;1295;23.455;1777;23.455;1292;23.455;1719;23.455;2120;23.455;1306;23.455;1601;23.455;2322;23.455;1359;23.455;1429;23.455;1219;23.455;1249;23.455;1409;23.455;1610;23.455;1900;23.455;1174;23.455;1678;23.455;1307;23.455;1131;23.455;1336;23.455;1751;23.455;1409;23.455;1151;23.455;811;23.455;1511;23.455;994;23.455;1525;23.455;1043;23.455;1566;23.455;1500;23.455;1037;23.455;1294;23.455;1149;23.455;1253;23.455;967;23.455;1080;23.455;1452;23.455;1283;23.455;1268;23.455;1048;23.455;1180;23.455;1283;23.455;1180;23.455;1360;23.455;1261;23.455;1379;23.455;1118;23.455;1903;23.455;1337;23.455;1735;23.455;1733;23.455;1244;23.455;1136;23.455;1684;23.455;1475;23.455;1070;23.455;1172;23.455;1525;23.455;1153;23.455;1216;23.455;1183;23.455;1107;23.455;1424;23.455;1282;23.455;1338;23.455;1250;23.455;985;23.455;1019;23.455;1101;23.455;1028;23.455;1109;23.455;967;23.455;1429;23.455;994;23.455;1106;23.455;1140;23.455;1205;23.455;1393;23.455;1133;23.455;978;23.455;1162
24.49;1257;24.49;1587;24.49;1294;24.49;1442;24.49;1116;24.49;2160;24.49;1143;24.49;1748;24.49;1517;24.49;1895;24.49;1302;24.49;1576;24.49;1207;24.49;1779;24.49;1124;24.49;1466;24.49;1943;24.49;1323;24.49;1454;24.49;2159;24.49;1276;24.49;1417;24.49;1033;24.49;1162;24.49;1399;24.49;1516;24.49;1901;24.49;1120;24.49;1495;24.49;1223;24.49;1098;24.49;1205;24.49;1597;24.49;1205;24.49;981;24.49;730;24.49;1779;24.49;881;24.49;1769;24.49;958;24.49;1619;24.49;1474;24.49;931;24.49;1218;24.49;1056;24.49;1215;24.49;897;24.49;944;24.49;1310;24.49;1203;24.49;1388;24.49;986;24.49;1178;24.49;1260;24.49;1023;24.49;1199;24.49;1234;24.49;1377;24.49;1033;24.49;2048;24.49;1400;24.49;1772;24.49;1710;24.49;1087;24.49;1026;24.49;1683;24.49;1366;24.49;1043;24.49;1096;24.49;1460;24.49;1013;24.49;1123;24.49;1099;24.49;1011;24.49;1424;24.49;1206;24.49;1322;24.49;1239;24.49;904;24.49;951;24.49;1007;24.49;938;24.49;983;24.49;826;24.49;1376;24.49;901;24.49;1046;24.49;1024;24.49;1087;24.49;1253;24.49;1004;24.49;929;24.49;1080
25.525;1114;25.525;1443;25.525;1274;25.525;1341;25.525;1011;25.525;2005;25.525;1103;25.525;1564;25.525;1398;25.525;1811;25.525;1345;25.525;1507;25.525;1203;25.525;1634;25.525;1037;25.525;1374;25.525;1975;25.525;1234;25.525;1469;25.525;2110;25.525;1159;25.525;1303;25.525;999;25.525;1042;25.525;1227;25.525;1424;25.525;1632;25.525;1023;25.525;1431;25.525;1155;25.525;954;25.525;1155;25.525;1536;25.525;1168;25.525;953;25.525;679;25.525;1309;25.525;780;25.525;1442;25.525;806;25.525;1445;25.525;1313;25.525;868;25.525;1142;25.525;1010;25.525;1164;25.525;840;25.525;881;25.525;1230;25.525;1092;25.525;1106;25.525;861;25.525;1013;25.525;1112;25.525;1042;25.525;1122;25.525;1118;25.525;1238;25.525;960;25.525;1774;25.525;1264;25.525;1681;25.525;1578;25.525;1055;25.525;996;25.525;1499;25.525;1304;25.525;953;25.525;1025;25.525;1334;25.525;974;25.525;1017;25.525;1056;25.525;884;25.525;1292;25.525;1051;25.525;1259;25.525;1036;25.525;749;25.525;923;25.525;897;25.525;831;25.525;900;25.525;795;25.525;1350;25.525;805;25.525;970;25.525;947;25.525;1084;25.525;1234;25.525;945;25.525;823;25.525;944
26.56;1071;26.56;1325;26.56;1142;26.56;1280;26.56;937;26.56;1894;26.56;1009;26.56;1468;26.56;1360;26.56;1718;26.56;1202;26.56;1475;26.56;1079;26.56;1574;26.56;986;26.56;1414;26.56;1870;26.56;1196;26.56;1420;26.56;2113;26.56;1151;26.56;1194;26.56;884;26.56;1069;26.56;1201;26.56;1343;26.56;1640;26.56;1000;26.56;1433;26.56;1060;26.56;939;26.56;1140;26.56;1573;26.56;1143;26.56;854;26.56;618;26.56;1304;26.56;796;26.56;1372;26.56;779;26.56;1321;26.56;1338;26.56;778;26.56;1036;26.56;959;26.56;1120;26.56;786;26.56;826;26.56;1209;26.56;1028;26.56;1048;26.56;790;26.56;1009;26.56;1029;26.56;926;26.56;1133;26.56;981;26.56;1144;26.56;851;26.56;1668;26.56;1236;26.56;1535;26.56;1582;26.56;1003;26.56;910;26.56;1493;26.56;1269;26.56;830;26.56;1002;26.56;1268;26.56;888;26.56;976;26.56;1003;26.56;850;26.56;1249;26.56;1050;26.56;1232;26.56;1044;26.56;756;26.56;860;26.56;909;26.56;849;26.56;854;26.56;753;26.56;1290;26.56;741;26.56;867;26.56;896;26.56;1069;26.56;1114;26.56;887;26.56;774;26.56;913
27.595;1095;27.595;1343;27.595;1066;27.595;1353;27.595;888;27.595;1933;27.595;956;27.595;1487;27.595;1383;27.595;1722;27.595;1252;27.595;1503;27.595;1103;27.595;1516;27.595;995;27.595;1481;27.595;1860;27.595;1107;27.595;1486;27.595;2372;27.595;1169;27.595;1174;27.595;890;27.595;1005;27.595;1181;27.595;1386;27.595;1613;27.595;956;27.595;1442;27.595;1035;27.595;885;27.595;1122;27.595;1635;27.595;1058;27.595;890;27.595;607;27.595;1304;27.595;707;27.595;1362;27.595;760;27.595;1436;27.595;1244;27.595;743;27.595;1070;27.595;953;27.595;1074;27.595;708;27.595;784;27.595;1294;27.595;961;27.595;1018;27.595;765;27.595;932;27.595;1054;27.595;906;27.595;1087;27.595;1015;27.595;1126;27.595;827;27.595;1673;27.595;1284;27.595;1644;27.595;1554;27.595;981;27.595;867;27.595;1486;27.595;1248;27.595;837;27.595;954;27.595;1323;27.595;892;27.595;997;27.595;942;27.595;857;27.595;1189;27.595;978;27.595;1172;27.595;991;27.595;679;27.595;789;27.595;860;27.595;765;27.595;853;27.595;695;27.595;1268;27.595;706;27.595;865;27.595;873;27.595;1010;27.595;1110;27.595;864;27.595;692;27.595;853
28.63;1367;28.63;1656;28.63;1144;28.63;1643;28.63;962;28.63;3253;28.63;1141;28.63;1763;28.63;1469;28.63;1939;28.63;1209;28.63;1469;28.63;1016;28.63;1622;28.63;946;28.63;1294;28.63;1852;28.63;1127;28.63;1397;28.63;2147;28.63;1166;28.63;1469;28.63;899;28.63;972;28.63;1159;28.63;1369;28.63;2164;28.63;889;28.63;1600;28.63;1053;28.63;836;28.63;1037;28.63;1572;28.63;1002;28.63;852;28.63;1027;28.63;2565;28.63;1210;28.63;1873;28.63;834;28.63;1784;28.63;2281;28.63;967;28.63;1193;28.63;922;28.63;1048;28.63;717;28.63;732;28.63;1173;28.63;979;28.63;1266;28.63;708;28.63;1091;28.63;1125;28.63;897;28.63;1024;28.63;1307;28.63;1637;28.63;826;28.63;2269;28.63;1676;28.63;1677;28.63;2273;28.63;1209;28.63;876;28.63;1783;28.63;1201;28.63;820;28.63;932;28.63;1197;28.63;837;28.63;1198;28.63;996;28.63;788;28.63;1347;28.63;1112;28.63;1152;28.63;1427;28.63;750;28.63;785;28.63;899;28.63;758;28.63;811;28.63;692;28.63;1714;28.63;744;28.63;1027;28.63;870;28.63;963;28.63;1163;28.63;973;28.63;743;28.63;897
29.665;1364;29.665;1626;29.665;1141;29.665;1840;29.665;808;29.665;1895;29.665;906;29.665;1398;29.665;1236;29.665;1623;29.665;1709;29.665;1670;29.665;1017;29.665;1651;29.665;1017;29.665;1490;29.665;1893;29.665;1149;29.665;1297;29.665;1956;29.665;1560;29.665;1924;29.665;1018;29.665;1196;29.665;1695;29.665;1817;29.665;1566;29.665;930;29.665;1356;29.665;980;29.665;1052;29.665;1406;29.665;1813;29.665;1309;29.665;744;29.665;1044;29.665;1851;29.665;1030;29.665;2169;29.665;823;29.665;1918;29.665;1197;29.665;694;29.665;1041;29.665;787;29.665;1139;29.665;945;29.665;971;29.665;1305;29.665;943;29.665;1385;29.665;785;29.665;1121;29.665;1388;29.665;824;29.665;1484;29.665;1586;29.665;1182;29.665;893;29.665;1763;29.665;2196;29.665;1943;29.665;1438;29.665;930;29.665;806;29.665;1353;29.665;1323;29.665;837;29.665;942;29.665;1506;29.665;741;29.665;1219;29.665;1122;29.665;774;29.665;1559;29.665;934;29.665;1285;29.665;1119;29.665;671;29.665;814;29.665;921;29.665;730;29.665;860;29.665;758;29.665;1346;29.665;703;29.665;963;29.665;881;29.665;950;29.665;1298;29.665;935;29.665;669;29.665;1279
30.7;956;30.7;1336;30.7;956;30.7;1239;30.7;744;30.7;1914;30.7;828;30.7;1362;30.7;1251;30.7;1578;30.7;1142;30.7;1429;30.7;1014;30.7;1634;30.7;904;30.7;1191;30.7;1850;30.7;1088;30.7;1386;30.7;2092;30.7;1046;30.7;1100;30.7;840;30.7;975;30.7;1117;30.7;1267;30.7;1542;30.7;841;30.7;1380;30.7;927;30.7;807;30.7;1068;30.7;1540;30.7;981;30.7;756;30.7;490;30.7;1192;30.7;687;30.7;1313;30.7;644;30.7;1338;30.7;1090;30.7;681;30.7;965;30.7;784;30.7;929;30.7;598;30.7;676;30.7;1115;30.7;884;30.7;906;30.7;627;30.7;851;30.7;958;30.7;761;30.7;946;30.7;1021;30.7;1123;30.7;728;30.7;1686;30.7;1259;30.7;1457;30.7;1449;30.7;874;30.7;727;30.7;1362;30.7;1160;30.7;741;30.7;776;30.7;1164;30.7;728;30.7;908;30.7;934;30.7;702;30.7;1139;30.7;928;30.7;1050;30.7;814;30.7;590;30.7;675;30.7;730;30.7;668;30.7;747;30.7;611;30.7;1192;30.7;608;30.7;731;30.7;763;30.7;878;30.7;1132;30.7;769;30.7;672;30.7;761
31.735;886;31.735;1165;31.735;924;31.735;1202;31.735;742;31.735;1758;31.735;831;31.735;1360;31.735;1150;31.735;1527;31.735;1041;31.735;1247;31.735;883;31.735;1413;31.735;812;31.735;1140;31.735;1734;31.735;1002;31.735;1254;31.735;1978;31.735;916;31.735;1037;31.735;713;31.735;862;31.735;1103;31.735;1352;31.735;1491;31.735;744;31.735;1260;31.735;935;31.735;716;31.735;1001;31.735;1410;31.735;984;31.735;666;31.735;434;31.735;1142;31.735;571;31.735;1215;31.735;587;31.735;1256;31.735;1134;31.735;637;31.735;890;31.735;719;31.735;897;31.735;606;31.735;646;31.735;1007;31.735;820;31.735;861;31.735;623;31.735;778;31.735;886;31.735;732;31.735;921;31.735;892;31.735;1023;31.735;682;31.735;1625;31.735;1125;31.735;1437;31.735;1379;31.735;808;31.735;725;31.735;1359;31.735;1025;31.735;648;31.735;751;31.735;1095;31.735;682;31.735;863;31.735;800;31.735;698;31.735;1077;31.735;854;31.735;1063;31.735;831;31.735;556;31.735;644;31.735;730;31.735;622;31.735;682;31.735;548;31.735;1080;31.735;592;31.735;671;31.735;741;31.735;837;31.735;1053;31.735;728;31.735;570;31.735;748
32.77;793;32.77;1113;32.77;864;32.77;1131;32.77;662;32.77;1681;32.77;758;32.77;1295;32.77;1142;32.77;1560;32.77;954;32.77;1268;32.77;857;32.77;1326;32.77;792;32.77;1154;32.77;1742;32.77;942;32.77;1201;32.77;1992;32.77;925;32.77;1056;32.77;733;32.77;783;32.77;1042;32.77;1219;32.77;1430;32.77;774;32.77;1156;32.77;899;32.77;690;32.77;934;32.77;1379;32.77;965;32.77;687;32.77;442;32.77;1171;32.77;568;32.77;1161;32.77;569;32.77;1280;32.77;1082;32.77;603;32.77;852;32.77;689;32.77;873;32.77;521;32.77;631;32.77;1010;32.77;770;32.77;825;32.77;550;32.77;773;32.77;880;32.77;684;32.77;939;32.77;815;32.77;958;32.77;680;32.77;1436;32.77;1043;32.77;1447;32.77;1343;32.77;760;32.77;681;32.77;1284;32.77;1012;32.77;675;32.77;732;32.77;1081;32.77;725;32.77;825;32.77;746;32.77;643;32.77;1036;32.77;842;32.77;1072;32.77;850;32.77;490;32.77;567;32.77;664;32.77;586;32.77;621;32.77;550;32.77;1072;32.77;526;32.77;681;32.77;675;32.77;797;32.77;1047;32.77;680;32.77;580;32.77;681
33.805;872;33.805;1158;33.805;863;33.805;1204;33.805;685;33.805;1741;33.805;820;33.805;1352;33.805;1628;33.805;1646;33.805;1025;33.805;1392;33.805;885;33.805;1538;33.805;985;33.805;1413;33.805;1862;33.805;1182;33.805;1519;33.805;2644;33.805;1076;33.805;993;33.805;731;33.805;911;33.805;1078;33.805;1225;33.805;1516;33.805;809;33.805;1333;33.805;902;33.805;760;33.805;1027;33.805;1602;33.805;1013;33.805;693;33.805;471;33.805;1185;33.805;595;33.805;1236;33.805;581;33.805;1269;33.805;1110;33.805;604;33.805;919;33.805;708;33.805;967;33.805;564;33.805;811;33.805;1372;33.805;901;33.805;947;33.805;612;33.805;766;33.805;1464;33.805;768;33.805;1234;33.805;822;33.805;992;33.805;678;33.805;1654;33.805;1449;33.805;1496;33.805;1356;33.805;799;33.805;666;33.805;1439;33.805;1105;33.805;736;33.805;875;33.805;1459;33.805;834;33.805;903;33.805;838;33.805;624;33.805;1145;33.805;895;33.805;1217;33.805;797;33.805;510;33.805;615;33.805;742;33.805;576;33.805;809;33.805;604;33.805;1149;33.805;558;33.805;687;33.805;695;33.805;828;33.805;1260;33.805;738;33.805;589;33.805;728
34.84;1361;34.84;2097;34.84;879;34.84;1477;34.84;806;34.84;2133;34.84;800;34.84;1260;34.84;1276;34.84;1540;34.84;1310;34.84;1704;34.84;963;34.84;1692;34.84;852;34.84;2963;34.84;1824;34.84;941;34.84;1179;34.84;1968;34.84;1406;34.84;1373;34.84;902;34.84;1011;34.84;1753;34.84;1670;34.84;1649;34.84;1035;34.84;1485;34.84;917;34.84;867;34.84;1576;34.84;1766;34.84;1076;34.84;698;34.84;1196;34.84;1944;34.84;1529;34.84;2193;34.84;650;34.84;1635;34.84;1322;34.84;677;34.84;856;34.84;685;34.84;1535;34.84;608;34.84;653;34.84;1306;34.84;792;34.84;1329;34.84;740;34.84;1135;34.84;1027;34.84;778;34.84;1223;34.84;1460;34.84;1148;34.84;675;34.84;1844;34.84;1627;34.84;1544;34.84;1471;34.84;864;34.84;682;34.84;1240;34.84;1169;34.84;681;34.84;808;34.84;1352;34.84;644;34.84;1104;34.84;1245;34.84;677;34.84;1462;34.84;940;34.84;1532;34.84;1234;34.84;640;34.84;732;34.84;789;34.84;591;34.84;724;34.84;724;34.84;1419;34.84;535;34.84;867;34.84;719;34.84;796;34.84;1159;34.84;789;34.84;641;34.84;793
35.875;805;35.875;1080;35.875;775;35.875;1121;35.875;651;35.875;1612;35.875;773;35.875;1235;35.875;1039;35.875;1436;35.875;919;35.875;1337;35.875;802;35.875;1357;35.875;749;35.875;1086;35.875;1636;35.875;856;35.875;1127;35.875;1882;35.875;964;35.875;965;35.875;648;35.875;791;35.875;920;35.875;1137;35.875;1429;35.875;717;35.875;1103;35.875;847;35.875;669;35.875;903;35.875;1297;35.875;779;35.875;588;35.875;438;35.875;1055;35.875;549;35.875;1124;35.875;496;35.875;1217;35.875;1056;35.875;540;35.875;859;35.875;653;35.875;803;35.875;508;35.875;610;35.875;926;35.875;792;35.875;804;35.875;521;35.875;774;35.875;796;35.875;648;35.875;762;35.875;780;35.875;930;35.875;612;35.875;1438;35.875;1079;35.875;1328;35.875;1299;35.875;729;35.875;629;35.875;1202;35.875;989;35.875;604;35.875;706;35.875;1020;35.875;637;35.875;819;35.875;717;35.875;625;35.875;939;35.875;842;35.875;961;35.875;752;35.875;469;35.875;562;35.875;672;35.875;537;35.875;632;35.875;501;35.875;989;35.875;500;35.875;645;35.875;668;35.875;778;35.875;987;35.875;615;35.875;557;35.875;657
36.91;784;36.91;1083;36.91;791;36.91;1052;36.91;639;36.91;1683;36.91;719;36.91;1224;36.91;1072;36.91;1447;36.91;945;36.91;1268;36.91;805;36.91;1308;36.91;741;36.91;1131;36.91;1725;36.91;896;36.91;1158;36.91;1925;36.91;847;36.91;877;36.91;600;36.91;761;36.91;963;36.91;1115;36.91;1384;36.91;712;36.91;1159;36.91;741;36.91;668;36.91;854;36.91;1353;36.91;807;36.91;611;36.91;381;36.91;1114;36.91;514;36.91;1171;36.91;503;36.91;1189;36.91;1050;36.91;523;36.91;865;36.91;645;36.91;797;36.91;490;36.91;577;36.91;930;36.91;710;36.91;822;36.91;493;36.91;695;36.91;772;36.91;649;36.91;801;36.91;793;36.91;937;36.91;555;36.91;1489;36.91;985;36.91;1353;36.91;1277;36.91;719;36.91;596;36.91;1211;36.91;1000;36.91;557;36.91;692;36.91;1014;36.91;667;36.91;796;36.91;751;36.91;579;36.91;948;36.91;807;36.91;985;36.91;735;36.91;458;36.91;550;36.91;625;36.91;552;36.91;641;36.91;487;36.91;993;36.91;454;36.91;629;36.91;632;36.91;745;36.91;927;36.91;644;36.91;555;36.91;634
37.945;819;37.945;1119;37.945;807;37.945;1059;37.945;631;37.945;1775;37.945;662;37.945;1229;37.945;1088;37.945;1496;37.945;916;37.945;1282;37.945;748;37.945;1368;37.945;731;37.945;1086;37.945;1798;37.945;859;37.945;1108;37.945;1978;37.945;898;37.945;953;37.945;637;37.945;891;37.945;924;37.945;1113;37.945;1353;37.945;676;37.945;1143;37.945;803;37.945;691;37.945;870;37.945;1383;37.945;807;37.945;797;37.945;399;37.945;1079;37.945;574;37.945;1169;37.945;478;37.945;1122;37.945;1035;37.945;462;37.945;773;37.945;621;37.945;775;37.945;456;37.945;566;37.945;914;37.945;724;37.945;739;37.945;478;37.945;683;37.945;771;37.945;578;37.945;795;37.945;845;37.945;941;37.945;569;37.945;1546;37.945;1248;37.945;1404;37.945;1333;37.945;684;37.945;559;37.945;1222;37.945;1043;37.945;573;37.945;640;37.945;996;37.945;632;37.945;837;37.945;739;37.945;563;37.945;932;37.945;750;37.945;981;37.945;717;37.945;431;37.945;503;37.945;590;37.945;516;37.945;597;37.945;499;37.945;1054;37.945;444;37.945;592;37.945;642;37.945;749;37.945;917;37.945;605;37.945;470;37.945;631
38.98;725;38.98;1053;38.98;741;38.98;1028;38.98;532;38.98;1644;38.98;639;38.98;1143;38.98;997;38.98;1411;38.98;908;38.98;1238;38.98;733;38.98;1207;38.98;627;38.98;1034;38.98;1632;38.98;862;38.98;1094;38.98;1850;38.98;833;38.98;853;38.98;580;38.98;754;38.98;877;38.98;1124;38.98;1348;38.98;630;38.98;1116;38.98;747;38.98;573;38.98;814;38.98;1343;38.98;754;38.98;542;38.98;351;38.98;1068;38.98;471;38.98;1109;38.98;457;38.98;1155;38.98;985;38.98;452;38.98;814;38.98;575;38.98;787;38.98;408;38.98;518;38.98;901;38.98;704;38.98;745;38.98;445;38.98;659;38.98;742;38.98;568;38.98;736;38.98;707;38.98;829;38.98;568;38.98;1429;38.98;979;38.98;1354;38.98;1217;38.98;667;38.98;547;38.98;1182;38.98;916;38.98;535;38.98;624;38.98;982;38.98;589;38.98;768;38.98;658;38.98;494;38.98;976;38.98;716;38.98;861;38.98;706;38.98;425;38.98;503;38.98;597;38.98;501;38.98;606;38.98;448;38.98;982;38.98;383;38.98;580;38.98;615;38.98;698;38.98;901;38.98;585;38.98;472;38.98;616
40.015;668;40.015;992;40.015;727;40.015;970;40.015;506;40.015;1513;40.015;623;40.015;1110;40.015;949;40.015;1382;40.015;822;40.015;1233;40.015;694;40.015;1258;40.015;639;40.015;1001;40.015;1658;40.015;839;40.015;1063;40.015;1804;40.015;767;40.015;852;40.015;581;40.015;743;40.015;862;40.015;1130;40.015;1243;40.015;597;40.015;1062;40.015;692;40.015;592;40.015;783;40.015;1275;40.015;747;40.015;487;40.015;338;40.015;1022;40.015;432;40.015;1048;40.015;436;40.015;1090;40.015;937;40.015;451;40.015;736;40.015;541;40.015;734;40.015;420;40.015;483;40.015;849;40.015;618;40.015;704;40.015;414;40.015;633;40.015;702;40.015;554;40.015;724;40.015;714;40.015;858;40.015;548;40.015;1406;40.015;933;40.015;1333;40.015;1191;40.015;651;40.015;546;40.015;1104;40.015;890;40.015;483;40.015;598;40.015;935;40.015;552;40.015;699;40.015;655;40.015;468;40.015;821;40.015;702;40.015;876;40.015;700;40.015;401;40.015;440;40.015;540;40.015;462;40.015;540;40.015;450;40.015;977;40.015;400;40.015;569;40.015;570;40.015;680;40.015;865;40.015;595;40.015;432;40.015;576
41.05;700;41.05;986;41.05;669;41.05;986;41.05;512;41.05;1609;41.05;636;41.05;1117;41.05;971;41.05;1407;41.05;886;41.05;1213;41.05;693;41.05;1233;41.05;621;41.05;1083;41.05;1568;41.05;802;41.05;1069;41.05;1764;41.05;786;41.05;818;41.05;559;41.05;722;41.05;879;41.05;1076;41.05;1269;41.05;625;41.05;1066;41.05;729;41.05;630;41.05;755;41.05;1245;41.05;728;41.05;530;41.05;354;41.05;1028;41.05;426;41.05;1038;41.05;406;41.05;1148;41.05;944;41.05;466;41.05;720;41.05;531;41.05;754;41.05;365;41.05;519;41.05;846;41.05;643;41.05;701;41.05;413;41.05;666;41.05;716;41.05;527;41.05;740;41.05;705;41.05;834;41.05;527;41.05;1427;41.05;966;41.05;1272;41.05;1262;41.05;625;41.05;544;41.05;1142;41.05;898;41.05;499;41.05;595;41.05;976;41.05;495;41.05;737;41.05;613;41.05;491;41.05;890;41.05;685;41.05;891;41.05;706;41.05;341;41.05;451;41.05;565;41.05;451;41.05;559;41.05;451;41.05;943;41.05;413;41.05;553;41.05;583;41.05;677;41.05;890;41.05;549;41.05;435;41.05;589
42.085;691;42.085;947;42.085;715;42.085;1082;42.085;512;42.085;1579;42.085;567;42.085;1155;42.085;1062;42.085;1479;42.085;892;42.085;1311;42.085;683;42.085;1262;42.085;657;42.085;1006;42.085;1731;42.085;845;42.085;1082;42.085;1887;42.085;805;42.085;859;42.085;567;42.085;714;42.085;807;42.085;1022;42.085;1284;42.085;586;42.085;1066;42.085;709;42.085;571;42.085;819;42.085;1248;42.085;774;42.085;532;42.085;335;42.085;974;42.085;429;42.085;1114;42.085;409;42.085;1247;42.085;980;42.085;399;42.085;772;42.085;564;42.085;780;42.085;368;42.085;494;42.085;922;42.085;697;42.085;725;42.085;400;42.085;617;42.085;688;42.085;516;42.085;708;42.085;666;42.085;837;42.085;572;42.085;1411;42.085;993;42.085;1430;42.085;1209;42.085;621;42.085;552;42.085;1153;42.085;926;42.085;469;42.085;610;42.085;940;42.085;557;42.085;755;42.085;663;42.085;505;42.085;945;42.085;660;42.085;943;42.085;651;42.085;364;42.085;464;42.085;550;42.085;440;42.085;542;42.085;438;42.085;931;42.085;378;42.085;545;42.085;609;42.085;734;42.085;902;42.085;533;42.085;421;42.085;620
43.12;706;43.12;987;43.12;685;43.12;949;43.12;471;43.12;1526;43.12;554;43.12;1050;43.12;921;43.12;1320;43.12;785;43.12;1179;43.12;644;43.12;1187;43.12;609;43.12;977;43.12;1577;43.12;800;43.12;1016;43.12;1775;43.12;723;43.12;805;43.12;541;43.12;680;43.12;803;43.12;1020;43.12;1290;43.12;562;43.12;1023;43.12;686;43.12;561;43.12;755;43.12;1249;43.12;684;43.12;523;43.12;314;43.12;1010;43.12;398;43.12;1099;43.12;383;43.12;1093;43.12;933;43.12;398;43.12;685;43.12;519;43.12;670;43.12;359;43.12;483;43.12;884;43.12;659;43.12;698;43.12;370;43.12;577;43.12;715;43.12;502;43.12;694;43.12;675;43.12;817;43.12;465;43.12;1463;43.12;912;43.12;1318;43.12;1167;43.12;569;43.12;510;43.12;1114;43.12;867;43.12;479;43.12;590;43.12;891;43.12;491;43.12;722;43.12;606;43.12;496;43.12;866;43.12;661;43.12;878;43.12;668;43.12;350;43.12;416;43.12;521;43.12;419;43.12;487;43.12;399;43.12;986;43.12;371;43.12;517;43.12;526;43.12;658;43.12;836;43.12;548;43.12;411;43.12;544
44.155;670;44.155;951;44.155;651;44.155;995;44.155;508;44.155;1581;44.155;582;44.155;1093;44.155;909;44.155;1388;44.155;889;44.155;1190;44.155;669;44.155;1195;44.155;640;44.155;1172;44.155;1596;44.155;809;44.155;1127;44.155;2224;44.155;785;44.155;821;44.155;533;44.155;726;44.155;830;44.155;1041;44.155;1229;44.155;578;44.155;1079;44.155;719;44.155;626;44.155;778;44.155;1436;44.155;772;44.155;495;44.155;360;44.155;968;44.155;408;44.155;1051;44.155;376;44.155;1108;44.155;928;44.155;425;44.155;733;44.155;487;44.155;685;44.155;361;44.155;539;44.155;1097;44.155;679;44.155;735;44.155;369;44.155;578;44.155;684;44.155;486;44.155;818;44.155;642;44.155;800;44.155;511;44.155;1460;44.155;956;44.155;1274;44.155;1129;44.155;649;44.155;509;44.155;1183;44.155;866;44.155;486;44.155;632;44.155;1033;44.155;576;44.155;698;44.155;665;44.155;493;44.155;888;44.155;676;44.155;862;44.155;642;44.155;370;44.155;414;44.155;520;44.155;424;44.155;585;44.155;414;44.155;938;44.155;385;44.155;523;44.155;563;44.155;677;44.155;803;44.155;513;44.155;448;44.155;559
45.19;911;45.19;1098;45.19;680;45.19;1275;45.19;527;45.19;2067;45.19;740;45.19;1162;45.19;1144;45.19;1596;45.19;963;45.19;1315;45.19;672;45.19;1151;45.19;586;45.19;1009;45.19;1667;45.19;846;45.19;1085;45.19;1803;45.19;790;45.19;832;45.19;608;45.19;715;45.19;818;45.19;1081;45.19;1445;45.19;605;45.19;1212;45.19;707;45.19;570;45.19;704;45.19;1237;45.19;672;45.19;463;45.19;462;45.19;1323;45.19;694;45.19;1164;45.19;512;45.19;1409;45.19;1516;45.19;527;45.19;983;45.19;537;45.19;750;45.19;412;45.19;503;45.19;778;45.19;669;45.19;664;45.19;357;45.19;663;45.19;666;45.19;527;45.19;677;45.19;901;45.19;1097;45.19;544;45.19;1553;45.19;1210;45.19;1427;45.19;1727;45.19;739;45.19;518;45.19;1319;45.19;910;45.19;467;45.19;569;45.19;891;45.19;514;45.19;748;45.19;634;45.19;468;45.19;900;45.19;734;45.19;842;45.19;870;45.19;387;45.19;517;45.19;553;45.19;460;45.19;495;45.19;471;45.19;1684;45.19;369;45.19;740;45.19;553;45.19;693;45.19;835;45.19;549;45.19;452;45.19;636
46.225;637;46.225;945;46.225;627;46.225;929;46.225;439;46.225;1467;46.225;575;46.225;1068;46.225;909;46.225;1336;46.225;794;46.225;1167;46.225;632;46.225;1175;46.225;550;46.225;907;46.225;1537;46.225;761;46.225;1044;46.225;1768;46.225;762;46.225;742;46.225;465;46.225;649;46.225;817;46.225;1042;46.225;1222;46.225;546;46.225;1053;46.225;690;46.225;561;46.225;759;46.225;1236;46.225;705;46.225;464;46.225;307;46.225;973;46.225;378;46.225;1070;46.225;346;46.225;1032;46.225;933;46.225;370;46.225;694;46.225;484;46.225;673;46.225;317;46.225;446;46.225;830;46.225;573;46.225;691;46.225;339;46.225;557;46.225;680;46.225;483;46.225;666;46.225;673;46.225;775;46.225;483;46.225;1389;46.225;920;46.225;1232;46.225;1151;46.225;573;46.225;468;46.225;1114;46.225;851;46.225;441;46.225;561;46.225;872;46.225;478;46.225;699;46.225;566;46.225;450;46.225;838;46.225;647;46.225;838;46.225;639;46.225;323;46.225;445;46.225;508;46.225;405;46.225;474;46.225;406;46.225;940;46.225;359;46.225;516;46.225;526;46.225;618;46.225;831;46.225;461;46.225;376;46.225;569
47.26;638;47.26;926;47.26;656;47.26;951;47.26;450;47.26;1510;47.26;551;47.26;1132;47.26;965;47.26;1318;47.26;833;47.26;1184;47.26;595;47.26;1151;47.26;573;47.26;951;47.26;1591;47.26;810;47.26;1038;47.26;1850;47.26;765;47.26;792;47.26;471;47.26;710;47.26;857;47.26;1049;47.26;1237;47.26;570;47.26;1027;47.26;725;47.26;530;47.26;765;47.26;1261;47.26;744;47.26;469;47.26;320;47.26;963;47.26;391;47.26;1044;47.26;365;47.26;1116;47.26;919;47.26;380;47.26;667;47.26;479;47.26;672;47.26;325;47.26;464;47.26;831;47.26;609;47.26;637;47.26;348;47.26;563;47.26;675;47.26;477;47.26;724;47.26;639;47.26;785;47.26;491;47.26;1372;47.26;929;47.26;1252;47.26;1216;47.26;555;47.26;461;47.26;1105;47.26;865;47.26;445;47.26;555;47.26;868;47.26;540;47.26;699;47.26;606;47.26;440;47.26;869;47.26;684;47.26;870;47.26;602;47.26;334;47.26;422;47.26;487;47.26;397;47.26;516;47.26;372;47.26;917;47.26;331;47.26;532;47.26;520;47.26;648;47.26;854;47.26;478;47.26;398;47.26;575
48.295;671;48.295;899;48.295;614;48.295;950;48.295;471;48.295;1505;48.295;527;48.295;1098;48.295;969;48.295;1387;48.295;813;48.295;1200;48.295;650;48.295;1297;48.295;628;48.295;1155;48.295;1607;48.295;782;48.295;1090;48.295;2277;48.295;747;48.295;733;48.295;466;48.295;710;48.295;828;48.295;1028;48.295;1263;48.295;602;48.295;1116;48.295;719;48.295;538;48.295;797;48.295;1387;48.295;698;48.295;496;48.295;296;48.295;929;48.295;367;48.295;1068;48.295;391;48.295;1052;48.295;876;48.295;383;48.295;663;48.295;506;48.295;646;48.295;348;48.295;526;48.295;1163;48.295;610;48.295;661;48.295;322;48.295;536;48.295;719;48.295;483;48.295;791;48.295;662;48.295;764;48.295;447;48.295;1428;48.295;957;48.295;1250;48.295;1120;48.295;550;48.295;455;48.295;1196;48.295;865;48.295;453;48.295;597;48.295;1087;48.295;510;48.295;675;48.295;597;48.295;443;48.295;880;48.295;705;48.295;878;48.295;597;48.295;320;48.295;417;48.295;505;48.295;374;48.295;566;48.295;399;48.295;905;48.295;351;48.295;491;48.295;519;48.295;631;48.295;887;48.295;516;48.295;381;48.295;559
49.33;885;49.33;1089;49.33;665;49.33;1468;49.33;489;49.33;1809;49.33;781;49.33;1190;49.33;1138;49.33;1616;49.33;1110;49.33;1325;49.33;633;49.33;1169;49.33;607;49.33;983;49.33;1602;49.33;996;49.33;1028;49.33;1729;49.33;819;49.33;805;49.33;832;49.33;705;49.33;856;49.33;1081;49.33;1313;49.33;561;49.33;1150;49.33;621;49.33;577;49.33;778;49.33;1261;49.33;708;49.33;433;49.33;581;49.33;1291;49.33;776;49.33;1196;49.33;562;49.33;1712;49.33;1465;49.33;568;49.33;1121;49.33;568;49.33;734;49.33;411;49.33;464;49.33;829;49.33;643;49.33;701;49.33;379;49.33;685;49.33;721;49.33;566;49.33;729;49.33;1000;49.33;907;49.33;630;49.33;1490;49.33;1337;49.33;1677;49.33;1746;49.33;850;49.33;526;49.33;1253;49.33;953;49.33;452;49.33;559;49.33;922;49.33;481;49.33;782;49.33;641;49.33;439;49.33;903;49.33;686;49.33;888;49.33;916;49.33;428;49.33;494;49.33;609;49.33;448;49.33;533;49.33;430;49.33;1396;49.33;366;49.33;786;49.33;652;49.33;729;49.33;870;49.33;537;49.33;474;49.33;714
50.365;674;50.365;959;50.365;689;50.365;961;50.365;467;50.365;1567;50.365;561;50.365;1052;50.365;945;50.365;1307;50.365;812;50.365;1177;50.365;592;50.365;1157;50.365;589;50.365;965;50.365;1565;50.365;731;50.365;1018;50.365;1745;50.365;801;50.365;842;50.365;506;50.365;683;50.365;857;50.365;1064;50.365;1326;50.365;583;50.365;1069;50.365;678;50.365;570;50.365;784;50.365;1203;50.365;659;50.365;463;50.365;375;50.365;1099;50.365;450;50.365;1222;50.365;364;50.365;1071;50.365;941;50.365;361;50.365;654;50.365;508;50.365;676;50.365;317;50.365;469;50.365;863;50.365;581;50.365;718;50.365;349;50.365;614;50.365;652;50.365;497;50.365;647;50.365;689;50.365;812;50.365;472;50.365;1388;50.365;987;50.365;1196;50.365;1185;50.365;576;50.365;442;50.365;1143;50.365;852;50.365;455;50.365;533;50.365;897;50.365;499;50.365;694;50.365;661;50.365;418;50.365;863;50.365;650;50.365;843;50.365;642;50.365;314;50.365;396;50.365;510;50.365;359;50.365;485;50.365;394;50.365;999;50.365;333;50.365;497;50.365;546;50.365;634;50.365;796;50.365;511;50.365;388;50.365;586
51.4;595;51.4;937;51.4;624;51.4;909;51.4;418;51.4;1506;51.4;510;51.4;1039;51.4;854;51.4;1295;51.4;874;51.4;1183;51.4;643;51.4;1124;51.4;574;51.4;939;51.4;1604;51.4;786;51.4;1004;51.4;1761;51.4;694;51.4;759;51.4;476;51.4;672;51.4;749;51.4;930;51.4;1221;51.4;544;51.4;1072;51.4;620;51.4;561;51.4;714;51.4;1207;51.4;647;51.4;435;51.4;285;51.4;951;51.4;383;51.4;1042;51.4;341;51.4;1014;51.4;859;51.4;348;51.4;679;51.4;462;51.4;680;51.4;323;51.4;409;51.4;779;51.4;610;51.4;655;51.4;324;51.4;538;51.4;611;51.4;442;51.4;624;51.4;624;51.4;772;51.4;480;51.4;1311;51.4;928;51.4;1275;51.4;1170;51.4;537;51.4;456;51.4;1038;51.4;845;51.4;429;51.4;532;51.4;859;51.4;486;51.4;669;51.4;593;51.4;390;51.4;801;51.4;619;51.4;811;51.4;597;51.4;293;51.4;398;51.4;480;51.4;364;51.4;498;51.4;329;51.4;891;51.4;336;51.4;490;51.4;483;51.4;640;51.4;836;51.4;476;51.4;381;51.4;584
52.435;611;52.435;1001;52.435;624;52.435;924;52.435;457;52.435;1595;52.435;554;52.435;1044;52.435;924;52.435;1323;52.435;870;52.435;1125;52.435;684;52.435;1181;52.435;555;52.435;927;52.435;1592;52.435;698;52.435;917;52.435;1716;52.435;712;52.435;749;52.435;454;52.435;655;52.435;778;52.435;966;52.435;1229;52.435;534;52.435;951;52.435;616;52.435;530;52.435;701;52.435;1214;52.435;652;52.435;407;52.435;329;52.435;946;52.435;460;52.435;967;52.435;325;52.435;1011;52.435;869;52.435;369;52.435;688;52.435;458;52.435;651;52.435;308;52.435;467;52.435;821;52.435;588;52.435;622;52.435;314;52.435;527;52.435;636;52.435;452;52.435;659;52.435;752;52.435;732;52.435;452;52.435;1354;52.435;906;52.435;1187;52.435;1193;52.435;553;52.435;411;52.435;1084;52.435;782;52.435;431;52.435;507;52.435;846;52.435;461;52.435;675;52.435;559;52.435;392;52.435;826;52.435;632;52.435;810;52.435;591;52.435;290;52.435;374;52.435;503;52.435;363;52.435;461;52.435;378;52.435;902;52.435;322;52.435;507;52.435;492;52.435;597;52.435;784;52.435;483;52.435;333;52.435;583
53.47;522;53.47;818;53.47;599;53.47;889;53.47;417;53.47;1460;53.47;515;53.47;973;53.47;863;53.47;1243;53.47;748;53.47;1128;53.47;597;53.47;1051;53.47;521;53.47;900;53.47;1436;53.47;688;53.47;948;53.47;1714;53.47;662;53.47;734;53.47;469;53.47;629;53.47;697;53.47;935;53.47;1156;53.47;520;53.47;946;53.47;626;53.47;505;53.47;672;53.47;1163;53.47;662;53.47;423;53.47;257;53.47;927;53.47;358;53.47;987;53.47;308;53.47;990;53.47;855;53.47;309;53.47;625;53.47;432;53.47;599;53.47;298;53.47;443;53.47;747;53.47;555;53.47;568;53.47;292;53.47;529;53.47;627;53.47;456;53.47;603;53.47;605;53.47;690;53.47;449;53.47;1303;53.47;847;53.47;1166;53.47;1108;53.47;497;53.47;423;53.47;1041;53.47;754;53.47;404;53.47;513;53.47;875;53.47;446;53.47;642;53.47;535;53.47;396;53.47;775;53.47;619;53.47;831;53.47;608;53.47;290;53.47;339;53.47;436;53.47;359;53.47;448;53.47;365;53.47;863;53.47;326;53.47;453;53.47;473;53.47;577;53.47;722;53.47;459;53.47;332;53.47;509
54.505;602;54.505;877;54.505;590;54.505;881;54.505;382;54.505;1459;54.505;482;54.505;1048;54.505;870;54.505;1232;54.505;759;54.505;1115;54.505;575;54.505;1137;54.505;507;54.505;900;54.505;1522;54.505;715;54.505;964;54.505;1776;54.505;633;54.505;723;54.505;444;54.505;653;54.505;718;54.505;915;54.505;1190;54.505;484;54.505;975;54.505;592;54.505;513;54.505;660;54.505;1231;54.505;657;54.505;412;54.505;269;54.505;909;54.505;340;54.505;985;54.505;313;54.505;974;54.505;846;54.505;346;54.505;640;54.505;456;54.505;635;54.505;293;54.505;457;54.505;807;54.505;560;54.505;551;54.505;302;54.505;506;54.505;613;54.505;432;54.505;620;54.505;570;54.505;705;54.505;433;54.505;1318;54.505;855;54.505;1192;54.505;1091;54.505;535;54.505;430;54.505;1026;54.505;812;54.505;368;54.505;498;54.505;897;54.505;468;54.505;661;54.505;546;54.505;384;54.505;805;54.505;604;54.505;794;54.505;604;54.505;277;54.505;339;54.505;473;54.505;333;54.505;490;54.505;350;54.505;872;54.505;278;54.505;483;54.505;435;54.505;590;54.505;852;54.505;443;54.505;326;54.505;522
55.54;591;55.54;880;55.54;578;55.54;886;55.54;398;55.54;1617;55.54;505;55.54;1040;55.54;885;55.54;1277;55.54;801;55.54;1104;55.54;602;55.54;1138;55.54;521;55.54;917;55.54;1506;55.54;698;55.54;976;55.54;1699;55.54;663;55.54;712;55.54;443;55.54;648;55.54;799;55.54;924;55.54;1196;55.54;521;55.54;991;55.54;630;55.54;497;55.54;696;55.54;1131;55.54;666;55.54;405;55.54;261;55.54;874;55.54;296;55.54;980;55.54;294;55.54;1026;55.54;863;55.54;339;55.54;666;55.54;462;55.54;624;55.54;267;55.54;406;55.54;790;55.54;587;55.54;628;55.54;284;55.54;507;55.54;602;55.54;423;55.54;596;55.54;563;55.54;693;55.54;426;55.54;1274;55.54;941;55.54;1224;55.54;1067;55.54;547;55.54;445;55.54;1023;55.54;781;55.54;370;55.54;497;55.54;854;55.54;480;55.54;671;55.54;572;55.54;386;55.54;829;55.54;579;55.54;811;55.54;584;55.54;255;55.54;358;55.54;463;55.54;344;55.54;444;55.54;342;55.54;847;55.54;310;55.54;482;55.54;479;55.54;553;55.54;756;55.54;452;55.54;363;55.54;497
56.575;564;56.575;805;56.575;518;56.575;854;56.575;392;56.575;1372;56.575;494;56.575;931;56.575;798;56.575;1178;56.575;749;56.575;1058;56.575;568;56.575;1106;56.575;512;56.575;899;56.575;1480;56.575;631;56.575;937;56.575;1797;56.575;677;56.575;725;56.575;448;56.575;607;56.575;733;56.575;893;56.575;1152;56.575;505;56.575;920;56.575;612;56.575;482;56.575;641;56.575;1152;56.575;603;56.575;383;56.575;260;56.575;871;56.575;312;56.575;941;56.575;301;56.575;955;56.575;847;56.575;307;56.575;588;56.575;436;56.575;598;56.575;273;56.575;427;56.575;848;56.575;538;56.575;583;56.575;286;56.575;505;56.575;597;56.575;428;56.575;624;56.575;568;56.575;697;56.575;392;56.575;1313;56.575;823;56.575;1162;56.575;1059;56.575;510;56.575;408;56.575;1028;56.575;788;56.575;389;56.575;483;56.575;819;56.575;428;56.575;620;56.575;575;56.575;394;56.575;783;56.575;583;56.575;744;56.575;544;56.575;250;56.575;350;56.575;439;56.575;334;56.575;467;56.575;319;56.575;833;56.575;281;56.575;456;56.575;452;56.575;569;56.575;782;56.575;428;56.575;327;56.575;507
57.61;587;57.61;902;57.61;551;57.61;974;57.61;389;57.61;1470;57.61;529;57.61;1083;57.61;963;57.61;1402;57.61;853;57.61;1138;57.61;614;57.61;1196;57.61;521;57.61;972;57.61;1555;57.61;738;57.61;1027;57.61;1763;57.61;718;57.61;709;57.61;453;57.61;604;57.61;758;57.61;949;57.61;1229;57.61;464;57.61;982;57.61;629;57.61;504;57.61;656;57.61;1147;57.61;638;57.61;408;57.61;245;57.61;916;57.61;328;57.61;937;57.61;323;57.61;1071;57.61;859;57.61;330;57.61;683;57.61;461;57.61;643;57.61;330;57.61;450;57.61;792;57.61;540;57.61;575;57.61;286;57.61;513;57.61;653;57.61;410;57.61;672;57.61;550;57.61;741;57.61;445;57.61;1392;57.61;946;57.61;1324;57.61;1160;57.61;524;57.61;440;57.61;1078;57.61;828;57.61;376;57.61;527;57.61;869;57.61;459;57.61;646;57.61;524;57.61;389;57.61;810;57.61;567;57.61;828;57.61;572;57.61;283;57.61;365;57.61;465;57.61;379;57.61;512;57.61;368;57.61;918;57.61;293;57.61;481;57.61;476;57.61;629;57.61;883;57.61;458;57.61;369;57.61;557
58.645;632;58.645;870;58.645;579;58.645;975;58.645;380;58.645;1468;58.645;524;58.645;949;58.645;850;58.645;1244;58.645;913;58.645;1123;58.645;600;58.645;1089;58.645;528;58.645;977;58.645;1524;58.645;695;58.645;929;58.645;1690;58.645;759;58.645;770;58.645;483;58.645;657;58.645;839;58.645;1036;58.645;1213;58.645;490;58.645;952;58.645;622;58.645;516;58.645;723;58.645;1186;58.645;659;58.645;408;58.645;351;58.645;988;58.645;394;58.645;1145;58.645;327;58.645;1015;58.645;852;58.645;330;58.645;621;58.645;398;58.645;601;58.645;315;58.645;434;58.645;751;58.645;537;58.645;651;58.645;302;58.645;585;58.645;639;58.645;432;58.645;630;58.645;615;58.645;729;58.645;441;58.645;1346;58.645;919;58.645;1222;58.645;1129;58.645;517;58.645;387;58.645;977;58.645;820;58.645;359;58.645;479;58.645;859;58.645;451;58.645;669;58.645;578;58.645;357;58.645;809;58.645;606;58.645;812;58.645;605;58.645;318;58.645;414;58.645;457;58.645;342;58.645;444;58.645;341;58.645;894;58.645;303;58.645;487;58.645;444;58.645;572;58.645;764;58.645;473;58.645;322;58.645;510
59.68;557;59.68;881;59.68;564;59.68;862;59.68;380;59.68;1427;59.68;471;59.68;963;59.68;781;59.68;1187;59.68;717;59.68;1044;59.68;584;59.68;1109;59.68;488;59.68;837;59.68;1479;59.68;655;59.68;905;59.68;1777;59.68;674;59.68;693;59.68;414;59.68;633;59.68;724;59.68;936;59.68;1144;59.68;487;59.68;946;59.68;607;59.68;445;59.68;676;59.68;1111;59.68;599;59.68;390;59.68;270;59.68;896;59.68;362;59.68;942;59.68;289;59.68;937;59.68;795;59.68;300;59.68;604;59.68;421;59.68;587;59.68;282;59.68;386;59.68;769;59.68;488;59.68;573;59.68;292;59.68;524;59.68;631;59.68;417;59.68;594;59.68;581;59.68;721;59.68;392;59.68;1355;59.68;867;59.68;1204;59.68;1044;59.68;490;59.68;377;59.68;1018;59.68;761;59.68;373;59.68;445;59.68;826;59.68;421;59.68;628;59.68;546;59.68;395;59.68;794;59.68;590;59.68;761;59.68;579;59.68;222;59.68;355;59.68;465;59.68;350;59.68;403;59.68;321;59.68;841;59.68;279;59.68;436;59.68;469;59.68;5.16E+02;59.68;760;59.68;420;59.68;345;59.68;542
60.1;530;60.1;777;60.1;559;60.1;821;60.1;360;60.1;1372;60.1;462;60.1;900;60.1;820;60.1;1224;60.1;716;60.1;1026;60.1;544;60.1;1075;60.1;498;60.1;835;60.1;1396;60.1;624;60.1;874;60.1;1684;60.1;638;60.1;673;60.1;422;60.1;605;60.1;734;60.1;896;60.1;1156;60.1;461;60.1;941;60.1;636;60.1;512;60.1;612;60.1;1097;60.1;632;60.1;397;60.1;231;60.1;878;60.1;294;60.1;919;60.1;301;60.1;932;60.1;827;60.1;287;60.1;558;60.1;378;60.1;582;60.1;270;60.1;384;60.1;778;60.1;506;60.1;600;60.1;265;60.1;467;60.1;598;60.1;397;60.1;597;60.1;548;60.1;703;60.1;383;60.1;1292;60.1;835;60.1;1157;60.1;1058;60.1;460;60.1;388;60.1;1034;60.1;767;60.1;343;60.1;411;60.1;824;60.1;457;60.1;617;60.1;535;60.1;354;60.1;768;60.1;585;60.1;784;60.1;552;60.1;230;60.1;356;60.1;402;60.1;296;60.1;408;60.1;341;60.1;819;60.1;276;60.1;418;60.1;432;60.1;555;60.1;750;60.1;420;60.1;301;60.1;478